IV MEASUREMENT
:start
2015-11-06 15:37:22
:stop
2015-11-06 15:43:03
:device
FTH200N_04_DiodeS_14
:tester
Michael
:atmosphere
Air
:environment
Probe Station
:Instruments
VI Kei6517A,CV AgE4980A,GI Kei6485,T ATTcontroller
:Comment
IV forward, GR grounded, 0 .. 0.27 V, T = 20 °C
Annealing time [min]:
0@0
:temperature [C]
20.000000
:start,stop voltage [V] & number of points
0.000000,-0.270000,28
:Voltage increment and increment speed
1.000000,0.500000
:polarity and ramp mode
negative,0
:Current meter range
Auto
:Averaging (int,ext,NPLC,Median Rank)
3,5
3.000000
3
:legend
bias [V],T[C],Current[Amp],Guard Current[Amp]
BEGIN
0.000000E+0	2.000000E+1	-1.892834E-12	-1.087605E-12
-1.000000E-2	2.000000E+1	-7.491110E-12	-4.143038E-12
-2.000000E-2	2.000000E+1	-1.585763E-11	-9.503450E-12
-3.000000E-2	2.000000E+1	-2.816012E-11	-1.726278E-11
-4.000000E-2	2.000000E+1	-4.697526E-11	-2.876124E-11
-5.000000E-2	2.000000E+1	-7.437304E-11	-4.560499E-11
-6.000000E-2	2.000000E+1	-1.180270E-10	-7.202100E-11
-7.000000E-2	2.000000E+1	-1.812697E-10	-1.101526E-10
-8.000000E-2	2.000000E+1	-2.767096E-10	-1.663188E-10
-9.000000E-2	2.000000E+1	-4.199450E-10	-2.500620E-10
-1.000000E-1	2.000000E+1	-6.269394E-10	-3.704529E-10
-1.100000E-1	2.000000E+1	-9.363542E-10	-5.517258E-10
-1.200000E-1	2.000000E+1	-1.411805E-9	-8.246842E-10
-1.300000E-1	2.000000E+1	-2.124516E-9	-1.229659E-9
-1.400000E-1	2.000000E+1	-3.157154E-9	-1.814835E-9
-1.500000E-1	2.000000E+1	-4.705574E-9	-2.865434E-9
-1.600000E-1	2.000000E+1	-7.044966E-9	-3.973431E-9
-1.700000E-1	2.000000E+1	-1.053628E-8	-5.934724E-9
-1.800000E-1	2.000000E+1	-1.373809E-8	-7.840283E-9
-1.900000E-1	2.000000E+1	-2.060535E-8	-1.139650E-8
-2.000000E-1	2.000000E+1	-3.077766E-8	-1.692374E-8
-2.100000E-1	2.000000E+1	-4.563996E-8	-2.684088E-8
-2.200000E-1	2.000000E+1	-6.777180E-8	-3.704585E-8
-2.300000E-1	2.000000E+1	-1.007197E-7	-5.453523E-8
-2.400000E-1	2.000000E+1	-1.501089E-7	-8.025164E-8
-2.500000E-1	2.000000E+1	-2.238776E-7	-1.187271E-7
-2.600000E-1	2.000000E+1	-3.312060E-7	-1.723050E-7
-2.700000E-1	2.000000E+1	-4.893834E-7	-2.681750E-7
END